Folder: SOFC/experimental_data/postmortem_data/nanoindentation (part 2)

File: YSZ_electrolyte_load_displacement.csv
Time_s,Load_mN,Displacement_nm,Phase,Modulus_GPa,Hardness_GPa
0.0,0.0,0.0,YSZ_electrolyte,186.314,13.2201
0.204082,0.207112,16041.6,YSZ_electrolyte,186.314,13.2201
0.408163,0.414224,45372.5,YSZ_electrolyte,186.314,13.2201
0.612245,0.621335,83354.6,YSZ_electrolyte,186.314,13.2201
0.816327,0.828447,128333,YSZ_electrolyte,186.314,13.2201
1.02041,1.03556,179351,YSZ_electrolyte,186.314,13.2201
1.22449,1.24267,235762,YSZ_electrolyte,186.314,13.2201
1.42857,1.44978,297095,YSZ_electrolyte,186.314,13.2201
1.63265,1.65689,362980,YSZ_electrolyte,186.314,13.2201
1.83673,1.86401,433123,YSZ_electrolyte,186.314,13.2201
2.04082,2.07112,507280,YSZ_electrolyte,186.314,13.2201
2.2449,2.27823,585244,YSZ_electrolyte,186.314,13.2201
2.44898,2.48534,666837,YSZ_electrolyte,186.314,13.2201
2.65306,2.69245,751905,YSZ_electrolyte,186.314,13.2201
2.85714,2.89957,840311,YSZ_electrolyte,186.314,13.2201
3.06122,3.10668,931933,YSZ_electrolyte,186.314,13.2201
3.26531,3.31379,1.02666e+06,YSZ_electrolyte,186.314,13.2201
3.46939,3.5209,1.1244e+06,YSZ_electrolyte,186.314,13.2201
3.67347,3.72801,1.22506e+06,YSZ_electrolyte,186.314,13.2201
3.87755,3.93512,1.32855e+06,YSZ_electrolyte,186.314,13.2201
4.08163,4.14224,1.4348e+06,YSZ_electrolyte,186.314,13.2201
4.28571,4.34935,1.54375e+06,YSZ_electrolyte,186.314,13.2201
4.4898,4.55646,1.65532e+06,YSZ_electrolyte,186.314,13.2201
4.69388,4.76357,1.76946e+06,YSZ_electrolyte,186.314,13.2201
4.89796,4.97068,1.8861e+06,YSZ_electrolyte,186.314,13.2201
5.10204,5.1778,2.0052e+06,YSZ_electrolyte,186.314,13.2201
5.30612,5.38491,2.12671e+06,YSZ_electrolyte,186.314,13.2201
5.5102,5.59202,2.25057e+06,YSZ_electrolyte,186.314,13.2201
5.71429,5.79913,2.37676e+06,YSZ_electrolyte,186.314,13.2201
5.91837,6.00624,2.50521e+06,YSZ_electrolyte,186.314,13.2201
6.12245,6.21335,2.6359e+06,YSZ_electrolyte,186.314,13.2201
6.32653,6.42047,2.76879e+06,YSZ_electrolyte,186.314,13.2201
6.53061,6.62758,2.90384e+06,YSZ_electrolyte,186.314,13.2201
6.73469,6.83469,3.04102e+06,YSZ_electrolyte,186.314,13.2201
6.93878,7.0418,3.18029e+06,YSZ_electrolyte,186.314,13.2201
7.14286,7.24891,3.32162e+06,YSZ_electrolyte,186.314,13.2201
7.34694,7.45603,3.46499e+06,YSZ_electrolyte,186.314,13.2201
7.55102,7.66314,3.61036e+06,YSZ_electrolyte,186.314,13.2201
7.7551,7.87025,3.75771e+06,YSZ_electrolyte,186.314,13.2201
7.95918,8.07736,3.90701e+06,YSZ_electrolyte,186.314,13.2201
8.16327,8.28447,4.05824e+06,YSZ_electrolyte,186.314,13.2201
8.36735,8.49158,4.21137e+06,YSZ_electrolyte,186.314,13.2201
8.57143,8.6987,4.36638e+06,YSZ_electrolyte,186.314,13.2201
8.77551,8.90581,4.52325e+06,YSZ_electrolyte,186.314,13.2201
8.97959,9.11292,4.68195e+06,YSZ_electrolyte,186.314,13.2201
9.18367,9.32003,4.84247e+06,YSZ_electrolyte,186.314,13.2201
9.38776,9.52714,5.00477e+06,YSZ_electrolyte,186.314,13.2201
9.59184,9.73426,5.16886e+06,YSZ_electrolyte,186.314,13.2201
9.79592,9.94137,5.3347e+06,YSZ_electrolyte,186.314,13.2201
10.0,10.1485,5.50227e+06,YSZ_electrolyte,186.314,13.2201
10.0,10.1485,5.50227e+06,YSZ_electrolyte,186.314,13.2201
10.5263,10.1485,5.51675e+06,YSZ_electrolyte,186.314,13.2201
11.0526,10.1485,5.53123e+06,YSZ_electrolyte,186.314,13.2201
11.5789,10.1485,5.54571e+06,YSZ_electrolyte,186.314,13.2201
12.1053,10.1485,5.56019e+06,YSZ_electrolyte,186.314,13.2201
12.6316,10.1485,5.57467e+06,YSZ_electrolyte,186.314,13.2201
13.1579,10.1485,5.58915e+06,YSZ_electrolyte,186.314,13.2201
13.6842,10.1485,5.60363e+06,YSZ_electrolyte,186.314,13.2201
14.2105,10.1485,5.61811e+06,YSZ_electrolyte,186.314,13.2201
14.7368,10.1485,5.63259e+06,YSZ_electrolyte,186.314,13.2201
15.2632,10.1485,5.64707e+06,YSZ_electrolyte,186.314,13.2201
15.7895,10.1485,5.66155e+06,YSZ_electrolyte,186.314,13.2201
16.3158,10.1485,5.67603e+06,YSZ_electrolyte,186.314,13.2201
16.8421,10.1485,5.69051e+06,YSZ_electrolyte,186.314,13.2201
17.3684,10.1485,5.70499e+06,YSZ_electrolyte,186.314,13.2201
17.8947,10.1485,5.71946e+06,YSZ_electrolyte,186.314,13.2201
18.4211,10.1485,5.73394e+06,YSZ_electrolyte,186.314,13.2201
18.9474,10.1485,5.74842e+06,YSZ_electrolyte,186.314,13.2201
19.4737,10.1485,5.7629e+06,YSZ_electrolyte,186.314,13.2201
20.0,10.1485,5.77738e+06,YSZ_electrolyte,186.314,13.2201
20.0,10.1485,5.77738e+06,YSZ_electrolyte,186.314,13.2201
20.2564,9.88826,5.52669e+06,YSZ_electrolyte,186.314,13.2201
20.5128,9.62804,5.2825e+06,YSZ_electrolyte,186.314,13.2201
20.7692,9.36783,5.04483e+06,YSZ_electrolyte,186.314,13.2201
21.0256,9.10761,4.81367e+06,YSZ_electrolyte,186.314,13.2201
21.2821,8.84739,4.58902e+06,YSZ_electrolyte,186.314,13.2201
21.5385,8.58717,4.37089e+06,YSZ_electrolyte,186.314,13.2201
21.7949,8.32696,4.15926e+06,YSZ_electrolyte,186.314,13.2201
22.0513,8.06674,3.95415e+06,YSZ_electrolyte,186.314,13.2201
22.3077,7.80652,3.75554e+06,YSZ_electrolyte,186.314,13.2201
22.5641,7.54631,3.56345e+06,YSZ_electrolyte,186.314,13.2201
22.8205,7.28609,3.37787e+06,YSZ_electrolyte,186.314,13.2201
23.0769,7.02587,3.1988e+06,YSZ_electrolyte,186.314,13.2201
23.3333,6.76565,3.02625e+06,YSZ_electrolyte,186.314,13.2201
23.5897,6.50544,2.8602e+06,YSZ_electrolyte,186.314,13.2201
23.8462,6.24522,2.70067e+06,YSZ_electrolyte,186.314,13.2201
24.1026,5.985,2.54765e+06,YSZ_electrolyte,186.314,13.2201
24.359,5.72478,2.40114e+06,YSZ_electrolyte,186.314,13.2201
24.6154,5.46457,2.26114e+06,YSZ_electrolyte,186.314,13.2201
24.8718,5.20435,2.12765e+06,YSZ_electrolyte,186.314,13.2201
25.1282,4.94413,2.00068e+06,YSZ_electrolyte,186.314,13.2201
25.3846,4.68391,1.88021e+06,YSZ_electrolyte,186.314,13.2201
25.641,4.4237,1.76626e+06,YSZ_electrolyte,186.314,13.2201
25.8974,4.16348,1.65882e+06,YSZ_electrolyte,186.314,13.2201
26.1538,3.90326,1.55789e+06,YSZ_electrolyte,186.314,13.2201
26.4103,3.64304,1.46347e+06,YSZ_electrolyte,186.314,13.2201
26.6667,3.38283,1.37557e+06,YSZ_electrolyte,186.314,13.2201
26.9231,3.12261,1.29417e+06,YSZ_electrolyte,186.314,13.2201
27.1795,2.86239,1.21929e+06,YSZ_electrolyte,186.314,13.2201
27.4359,2.60217,1.15092e+06,YSZ_electrolyte,186.314,13.2201
27.6923,2.34196,1.08906e+06,YSZ_electrolyte,186.314,13.2201
27.9487,2.08174,1.03371e+06,YSZ_electrolyte,186.314,13.2201
28.2051,1.82152,984874,YSZ_electrolyte,186.314,13.2201
28.4615,1.5613,942549,YSZ_electrolyte,186.314,13.2201
28.7179,1.30109,906735,YSZ_electrolyte,186.314,13.2201
28.9744,1.04087,877433,YSZ_electrolyte,186.314,13.2201
29.2308,0.780652,854643,YSZ_electrolyte,186.314,13.2201
29.4872,0.520435,838364,YSZ_electrolyte,186.314,13.2201
29.7436,0.260217,828596,YSZ_electrolyte,186.314,13.2201
30.0,0.0,825340,YSZ_electrolyte,186.314,13.2201

File: YSZ_in_anode_load_displacement.csv
Time_s,Load_mN,Displacement_nm,Phase,Modulus_GPa,Hardness_GPa
0.0,0.0,0.0,YSZ_in_anode,165.631,12.1023
0.204082,0.191081,16648.1,YSZ_in_anode,165.631,12.1023
0.408163,0.382162,47087.9,YSZ_in_anode,165.631,12.1023
0.612245,0.573243,86506,YSZ_in_anode,165.631,12.1023
0.816327,0.764325,133185,YSZ_in_anode,165.631,12.1023
1.02041,0.955406,186131,YSZ_in_anode,165.631,12.1023
1.22449,1.14649,244676,YSZ_in_anode,165.631,12.1023
1.42857,1.33757,308327,YSZ_in_anode,165.631,12.1023
1.63265,1.52865,376703,YSZ_in_anode,165.631,12.1023
1.83673,1.71973,449498,YSZ_in_anode,165.631,12.1023
2.04082,1.91081,526459,YSZ_in_anode,165.631,12.1023
2.2449,2.10189,607370,YSZ_in_anode,165.631,12.1023
2.44898,2.29297,692048,YSZ_in_anode,165.631,12.1023
2.65306,2.48405,780332,YSZ_in_anode,165.631,12.1023
2.85714,2.67514,872080,YSZ_in_anode,165.631,12.1023
3.06122,2.86622,967167,YSZ_in_anode,165.631,12.1023
3.26531,3.0573,1.06548e+06,YSZ_in_anode,165.631,12.1023
3.46939,3.24838,1.16691e+06,YSZ_in_anode,165.631,12.1023
3.67347,3.43946,1.27137e+06,YSZ_in_anode,165.631,12.1023
3.87755,3.63054,1.37878e+06,YSZ_in_anode,165.631,12.1023
4.08163,3.82162,1.48905e+06,YSZ_in_anode,165.631,12.1023
4.28571,4.0127,1.60211e+06,YSZ_in_anode,165.631,12.1023
4.4898,4.20379,1.7179e+06,YSZ_in_anode,165.631,12.1023
4.69388,4.39487,1.83635e+06,YSZ_in_anode,165.631,12.1023
4.89796,4.58595,1.95741e+06,YSZ_in_anode,165.631,12.1023
5.10204,4.77703,2.08101e+06,YSZ_in_anode,165.631,12.1023
5.30612,4.96811,2.20711e+06,YSZ_in_anode,165.631,12.1023
5.5102,5.15919,2.33566e+06,YSZ_in_anode,165.631,12.1023
5.71429,5.35027,2.46662e+06,YSZ_in_anode,165.631,12.1023
5.91837,5.54135,2.59993e+06,YSZ_in_anode,165.631,12.1023
6.12245,5.73243,2.73556e+06,YSZ_in_anode,165.631,12.1023
6.32653,5.92352,2.87347e+06,YSZ_in_anode,165.631,12.1023
6.53061,6.1146,3.01363e+06,YSZ_in_anode,165.631,12.1023
6.73469,6.30568,3.15599e+06,YSZ_in_anode,165.631,12.1023
6.93878,6.49676,3.30052e+06,YSZ_in_anode,165.631,12.1023
7.14286,6.68784,3.4472e+06,YSZ_in_anode,165.631,12.1023
7.34694,6.87892,3.59599e+06,YSZ_in_anode,165.631,12.1023
7.55102,7.07,3.74686e+06,YSZ_in_anode,165.631,12.1023
7.7551,7.26108,3.89978e+06,YSZ_in_anode,165.631,12.1023
7.95918,7.45216,4.05472e+06,YSZ_in_anode,165.631,12.1023
8.16327,7.64325,4.21167e+06,YSZ_in_anode,165.631,12.1023
8.36735,7.83433,4.37059e+06,YSZ_in_anode,165.631,12.1023
8.57143,8.02541,4.53146e+06,YSZ_in_anode,165.631,12.1023
8.77551,8.21649,4.69426e+06,YSZ_in_anode,165.631,12.1023
8.97959,8.40757,4.85896e+06,YSZ_in_anode,165.631,12.1023
9.18367,8.59865,5.02554e+06,YSZ_in_anode,165.631,12.1023
9.38776,8.78973,5.19399e+06,YSZ_in_anode,165.631,12.1023
9.59184,8.98081,5.36428e+06,YSZ_in_anode,165.631,12.1023
9.79592,9.17189,5.53638e+06,YSZ_in_anode,165.631,12.1023
10.0,9.36298,5.71029e+06,YSZ_in_anode,165.631,12.1023
10.0,9.36298,5.71029e+06,YSZ_in_anode,165.631,12.1023
10.5263,9.36298,5.72532e+06,YSZ_in_anode,165.631,12.1023
11.0526,9.36298,5.74035e+06,YSZ_in_anode,165.631,12.1023
11.5789,9.36298,5.75538e+06,YSZ_in_anode,165.631,12.1023
12.1053,9.36298,5.7704e+06,YSZ_in_anode,165.631,12.1023
12.6316,9.36298,5.78543e+06,YSZ_in_anode,165.631,12.1023
13.1579,9.36298,5.80046e+06,YSZ_in_anode,165.631,12.1023
13.6842,9.36298,5.81548e+06,YSZ_in_anode,165.631,12.1023
14.2105,9.36298,5.83051e+06,YSZ_in_anode,165.631,12.1023
14.7368,9.36298,5.84554e+06,YSZ_in_anode,165.631,12.1023
15.2632,9.36298,5.86057e+06,YSZ_in_anode,165.631,12.1023
15.7895,9.36298,5.87559e+06,YSZ_in_anode,165.631,12.1023
16.3158,9.36298,5.89062e+06,YSZ_in_anode,165.631,12.1023
16.8421,9.36298,5.90565e+06,YSZ_in_anode,165.631,12.1023
17.3684,9.36298,5.92067e+06,YSZ_in_anode,165.631,12.1023
17.8947,9.36298,5.9357e+06,YSZ_in_anode,165.631,12.1023
18.4211,9.36298,5.95073e+06,YSZ_in_anode,165.631,12.1023
18.9474,9.36298,5.96575e+06,YSZ_in_anode,165.631,12.1023
19.4737,9.36298,5.98078e+06,YSZ_in_anode,165.631,12.1023
20.0,9.36298,5.99581e+06,YSZ_in_anode,165.631,12.1023
20.0,9.36298,5.99581e+06,YSZ_in_anode,165.631,12.1023
20.2564,9.1229,5.73564e+06,YSZ_in_anode,165.631,12.1023
20.5128,8.88282,5.48222e+06,YSZ_in_anode,165.631,12.1023
20.7692,8.64275,5.23556e+06,YSZ_in_anode,165.631,12.1023
21.0256,8.40267,4.99566e+06,YSZ_in_anode,165.631,12.1023
21.2821,8.16259,4.76252e+06,YSZ_in_anode,165.631,12.1023
21.5385,7.92252,4.53614e+06,YSZ_in_anode,165.631,12.1023
21.7949,7.68244,4.31651e+06,YSZ_in_anode,165.631,12.1023
22.0513,7.44237,4.10364e+06,YSZ_in_anode,165.631,12.1023
22.3077,7.20229,3.89753e+06,YSZ_in_anode,165.631,12.1023
22.5641,6.96221,3.69818e+06,YSZ_in_anode,165.631,12.1023
22.8205,6.72214,3.50558e+06,YSZ_in_anode,165.631,12.1023
23.0769,6.48206,3.31974e+06,YSZ_in_anode,165.631,12.1023
23.3333,6.24198,3.14066e+06,YSZ_in_anode,165.631,12.1023
23.5897,6.00191,2.96834e+06,YSZ_in_anode,165.631,12.1023
23.8462,5.76183,2.80277e+06,YSZ_in_anode,165.631,12.1023
24.1026,5.52176,2.64397e+06,YSZ_in_anode,165.631,12.1023
24.359,5.28168,2.49192e+06,YSZ_in_anode,165.631,12.1023
24.6154,5.0416,2.34663e+06,YSZ_in_anode,165.631,12.1023
24.8718,4.80153,2.20809e+06,YSZ_in_anode,165.631,12.1023
25.1282,4.56145,2.07632e+06,YSZ_in_anode,165.631,12.1023
25.3846,4.32137,1.9513e+06,YSZ_in_anode,165.631,12.1023
25.641,4.0813,1.83304e+06,YSZ_in_anode,165.631,12.1023
25.8974,3.84122,1.72154e+06,YSZ_in_anode,165.631,12.1023
26.1538,3.60114,1.61679e+06,YSZ_in_anode,165.631,12.1023
26.4103,3.36107,1.5188e+06,YSZ_in_anode,165.631,12.1023
26.6667,3.12099,1.42757e+06,YSZ_in_anode,165.631,12.1023
26.9231,2.88092,1.3431e+06,YSZ_in_anode,165.631,12.1023
27.1795,2.64084,1.26539e+06,YSZ_in_anode,165.631,12.1023
27.4359,2.40076,1.19443e+06,YSZ_in_anode,165.631,12.1023
27.6923,2.16069,1.13023e+06,YSZ_in_anode,165.631,12.1023
27.9487,1.92061,1.07279e+06,YSZ_in_anode,165.631,12.1023
28.2051,1.68053,1.02211e+06,YSZ_in_anode,165.631,12.1023
28.4615,1.44046,978184,YSZ_in_anode,165.631,12.1023
28.7179,1.20038,941016,YSZ_in_anode,165.631,12.1023
28.9744,0.960305,910606,YSZ_in_anode,165.631,12.1023
29.2308,0.720229,886954,YSZ_in_anode,165.631,12.1023
29.4872,0.480153,870060,YSZ_in_anode,165.631,12.1023
29.7436,0.240076,859923,YSZ_in_anode,165.631,12.1023
30.0,0.0,856544,YSZ_in_anode,165.631,12.1023

File: YSZ_in_cathode_load_displacement.csv
Time_s,Load_mN,Displacement_nm,Phase,Modulus_GPa,Hardness_GPa
0.0,0.0,0.0,YSZ_in_cathode,198.669,10.9318
0.204082,0.221539,16092,YSZ_in_cathode,198.669,10.9318
0.408163,0.443078,45514.9,YSZ_in_cathode,198.669,10.9318
0.612245,0.664617,83616.2,YSZ_in_cathode,198.669,10.9318
0.816327,0.886156,128736,YSZ_in_cathode,198.669,10.9318
1.02041,1.10769,179913,YSZ_in_cathode,198.669,10.9318
1.22449,1.32923,236502,YSZ_in_cathode,198.669,10.9318
1.42857,1.55077,298027,YSZ_in_cathode,198.669,10.9318
1.63265,1.77231,364119,YSZ_in_cathode,198.669,10.9318
1.83673,1.99385,434483,YSZ_in_cathode,198.669,10.9318
2.04082,2.21539,508872,YSZ_in_cathode,198.669,10.9318
2.2449,2.43693,587081,YSZ_in_cathode,198.669,10.9318
2.44898,2.65847,668930,YSZ_in_cathode,198.669,10.9318
2.65306,2.88001,754265,YSZ_in_cathode,198.669,10.9318
2.85714,3.10154,842948,YSZ_in_cathode,198.669,10.9318
3.06122,3.32308,934858,YSZ_in_cathode,198.669,10.9318
3.26531,3.54462,1.02988e+06,YSZ_in_cathode,198.669,10.9318
3.46939,3.76616,1.12793e+06,YSZ_in_cathode,198.669,10.9318
3.67347,3.9877,1.2289e+06,YSZ_in_cathode,198.669,10.9318
3.87755,4.20924,1.33272e+06,YSZ_in_cathode,198.669,10.9318
4.08163,4.43078,1.43931e+06,YSZ_in_cathode,198.669,10.9318
4.28571,4.65232,1.54859e+06,YSZ_in_cathode,198.669,10.9318
4.4898,4.87386,1.66051e+06,YSZ_in_cathode,198.669,10.9318
4.69388,5.09539,1.77501e+06,YSZ_in_cathode,198.669,10.9318
4.89796,5.31693,1.89202e+06,YSZ_in_cathode,198.669,10.9318
5.10204,5.53847,2.01149e+06,YSZ_in_cathode,198.669,10.9318
5.30612,5.76001,2.13338e+06,YSZ_in_cathode,198.669,10.9318
5.5102,5.98155,2.25764e+06,YSZ_in_cathode,198.669,10.9318
5.71429,6.20309,2.38422e+06,YSZ_in_cathode,198.669,10.9318
5.91837,6.42463,2.51308e+06,YSZ_in_cathode,198.669,10.9318
6.12245,6.64617,2.64418e+06,YSZ_in_cathode,198.669,10.9318
6.32653,6.86771,2.77748e+06,YSZ_in_cathode,198.669,10.9318
6.53061,7.08925,2.91295e+06,YSZ_in_cathode,198.669,10.9318
6.73469,7.31078,3.05056e+06,YSZ_in_cathode,198.669,10.9318
6.93878,7.53232,3.19027e+06,YSZ_in_cathode,198.669,10.9318
7.14286,7.75386,3.33204e+06,YSZ_in_cathode,198.669,10.9318
7.34694,7.9754,3.47586e+06,YSZ_in_cathode,198.669,10.9318
7.55102,8.19694,3.62169e+06,YSZ_in_cathode,198.669,10.9318
7.7551,8.41848,3.7695e+06,YSZ_in_cathode,198.669,10.9318
7.95918,8.64002,3.91927e+06,YSZ_in_cathode,198.669,10.9318
8.16327,8.86156,4.07098e+06,YSZ_in_cathode,198.669,10.9318
8.36735,9.0831,4.22459e+06,YSZ_in_cathode,198.669,10.9318
8.57143,9.30463,4.38009e+06,YSZ_in_cathode,198.669,10.9318
8.77551,9.52617,4.53745e+06,YSZ_in_cathode,198.669,10.9318
8.97959,9.74771,4.69664e+06,YSZ_in_cathode,198.669,10.9318
9.18367,9.96925,4.85766e+06,YSZ_in_cathode,198.669,10.9318
9.38776,10.1908,5.02048e+06,YSZ_in_cathode,198.669,10.9318
9.59184,10.4123,5.18508e+06,YSZ_in_cathode,198.669,10.9318
9.79592,10.6339,5.35144e+06,YSZ_in_cathode,198.669,10.9318
10.0,10.8554,5.51954e+06,YSZ_in_cathode,198.669,10.9318
10.0,10.8554,5.51954e+06,YSZ_in_cathode,198.669,10.9318
10.5263,10.8554,5.53406e+06,YSZ_in_cathode,198.669,10.9318
11.0526,10.8554,5.54859e+06,YSZ_in_cathode,198.669,10.9318
11.5789,10.8554,5.56311e+06,YSZ_in_cathode,198.669,10.9318
12.1053,10.8554,5.57764e+06,YSZ_in_cathode,198.669,10.9318
12.6316,10.8554,5.59216e+06,YSZ_in_cathode,198.669,10.9318
13.1579,10.8554,5.60669e+06,YSZ_in_cathode,198.669,10.9318
13.6842,10.8554,5.62122e+06,YSZ_in_cathode,198.669,10.9318
14.2105,10.8554,5.63574e+06,YSZ_in_cathode,198.669,10.9318
14.7368,10.8554,5.65027e+06,YSZ_in_cathode,198.669,10.9318
15.2632,10.8554,5.66479e+06,YSZ_in_cathode,198.669,10.9318
15.7895,10.8554,5.67932e+06,YSZ_in_cathode,198.669,10.9318
16.3158,10.8554,5.69384e+06,YSZ_in_cathode,198.669,10.9318
16.8421,10.8554,5.70837e+06,YSZ_in_cathode,198.669,10.9318
17.3684,10.8554,5.72289e+06,YSZ_in_cathode,198.669,10.9318
17.8947,10.8554,5.73742e+06,YSZ_in_cathode,198.669,10.9318
18.4211,10.8554,5.75194e+06,YSZ_in_cathode,198.669,10.9318
18.9474,10.8554,5.76647e+06,YSZ_in_cathode,198.669,10.9318
19.4737,10.8554,5.78099e+06,YSZ_in_cathode,198.669,10.9318
20.0,10.8554,5.79552e+06,YSZ_in_cathode,198.669,10.9318
20.0,10.8554,5.79552e+06,YSZ_in_cathode,198.669,10.9318
20.2564,10.5771,5.54403e+06,YSZ_in_cathode,198.669,10.9318
20.5128,10.2987,5.29908e+06,YSZ_in_cathode,198.669,10.9318
20.7692,10.0204,5.06067e+06,YSZ_in_cathode,198.669,10.9318
21.0256,9.74203,4.82878e+06,YSZ_in_cathode,198.669,10.9318
21.2821,9.46369,4.60343e+06,YSZ_in_cathode,198.669,10.9318
21.5385,9.18534,4.3846e+06,YSZ_in_cathode,198.669,10.9318
21.7949,8.907,4.17231e+06,YSZ_in_cathode,198.669,10.9318
22.0513,8.62866,3.96656e+06,YSZ_in_cathode,198.669,10.9318
22.3077,8.35031,3.76733e+06,YSZ_in_cathode,198.669,10.9318
22.5641,8.07197,3.57464e+06,YSZ_in_cathode,198.669,10.9318
22.8205,7.79363,3.38847e+06,YSZ_in_cathode,198.669,10.9318
23.0769,7.51528,3.20884e+06,YSZ_in_cathode,198.669,10.9318
23.3333,7.23694,3.03575e+06,YSZ_in_cathode,198.669,10.9318
23.5897,6.95859,2.86918e+06,YSZ_in_cathode,198.669,10.9318
23.8462,6.68025,2.70915e+06,YSZ_in_cathode,198.669,10.9318
24.1026,6.40191,2.55564e+06,YSZ_in_cathode,198.669,10.9318
24.359,6.12356,2.40867e+06,YSZ_in_cathode,198.669,10.9318
24.6154,5.84522,2.26824e+06,YSZ_in_cathode,198.669,10.9318
24.8718,5.56688,2.13433e+06,YSZ_in_cathode,198.669,10.9318
25.1282,5.28853,2.00696e+06,YSZ_in_cathode,198.669,10.9318
25.3846,5.01019,1.88611e+06,YSZ_in_cathode,198.669,10.9318
25.641,4.73184,1.7718e+06,YSZ_in_cathode,198.669,10.9318
25.8974,4.4535,1.66403e+06,YSZ_in_cathode,198.669,10.9318
26.1538,4.17516,1.56278e+06,YSZ_in_cathode,198.669,10.9318
26.4103,3.89681,1.46807e+06,YSZ_in_cathode,198.669,10.9318
26.6667,3.61847,1.37988e+06,YSZ_in_cathode,198.669,10.9318
26.9231,3.34013,1.29823e+06,YSZ_in_cathode,198.669,10.9318
27.1795,3.06178,1.22312e+06,YSZ_in_cathode,198.669,10.9318
27.4359,2.78344,1.15453e+06,YSZ_in_cathode,198.669,10.9318
27.6923,2.50509,1.09248e+06,YSZ_in_cathode,198.669,10.9318
27.9487,2.22675,1.03695e+06,YSZ_in_cathode,198.669,10.9318
28.2051,1.94841,987965,YSZ_in_cathode,198.669,10.9318
28.4615,1.67006,945507,YSZ_in_cathode,198.669,10.9318
28.7179,1.39172,909581,YSZ_in_cathode,198.669,10.9318
28.9744,1.11338,880187,YSZ_in_cathode,198.669,10.9318
29.2308,0.835031,857325,YSZ_in_cathode,198.669,10.9318
29.4872,0.556688,840995,YSZ_in_cathode,198.669,10.9318
29.7436,0.278344,831197,YSZ_in_cathode,198.669,10.9318
30.0,0.0,827931,YSZ_in_cathode,198.669,10.9318